File: pixelframe_beam1.csv
"Time", "Load (lb)", "Position (in)", "AxialStrain (in)", "TransverseStrain (in)", "Auxiliary ()", "Control Out (V)", "Stress (psi)"
0.0, 194.118, 0.0, 0.008311861, -0.0029278, NaN, 0.0592077, "- N/A -   "
2, 207.582, 0.00125115, 0.008034293, -0.00278608, NaN, 0.0897272, "- N/A -   "
4, 217.681, 0.00300277, 0.00777429, -0.00265864, NaN, 0.0897272, "- N/A -   "
6, 221.047, 0.00475438, 0.00767123, -0.002609202, NaN, 0.0592077, "- N/A -   "
8, 226.657, 0.006255768, 0.00753537, -0.00255098, NaN, 0.0897272, "- N/A -   "
10, 232.2678, 0.008007383, 0.007388972, -0.002490552, NaN, 0.0897272, "- N/A -   "
12, 237.878, 0.009758998, 0.0072496, -0.00243892, NaN, 0.0592077, "- N/A -   "
14, 244.611, 0.0112604, 0.00705987, -0.00235982, NaN, 0.0897272, "- N/A -   "
16, 251.343, 0.013012, 0.006867797, -0.00228291, NaN, 0.0897272, "- N/A -   "
18, 256.953, 0.0147636, 0.006715544, -0.002224688, NaN, 0.0592077, "- N/A -   "
20, 262.5636, 0.016265, 0.00652464, -0.00214888, NaN, 0.0897272, "- N/A -   "
22, 269.296, 0.01801661, 0.006329055, -0.002071981, NaN, 0.0897272, "- N/A -   "
24, 276.0284, 0.0197682, 0.006163918, -0.00200606, NaN, 0.0592077, "- N/A -   "
26, 282.761, 0.0212696, 0.00597419, -0.00193136, NaN, 0.0897272, "- N/A -   "
28, 288.371, 0.0230212, 0.005762204, -0.00184347, NaN, 0.0897272, "- N/A -   "
30, 295.104, 0.02477284, 0.005567788, -0.00176437, NaN, 0.0592077, "- N/A -   "
32, 302.958, 0.0262742, 0.00535112, -0.00167428, NaN, 0.0897272, "- N/A -   "
34, 311.935, 0.02802584, 0.00508878, -0.00156552, NaN, 0.0897272, "- N/A -   "
36, 320.911, 0.0297775, 0.004812377, -0.00145127, NaN, 0.0592077, "- N/A -   "
38, 331.01, 0.0312788, 0.004516069, -0.00132493, NaN, 0.0897272, "- N/A -   "
40, 342.23, 0.0330305, 0.004212733, -0.00119749, NaN, 0.0897272, "- N/A -   "
42, 353.451, 0.0347821, 0.00392228, -0.00107224, NaN, 0.0592077, "- N/A -   "
44, 362.428, 0.0362835, 0.00362597, -9.371155E-4, NaN, 0.0897272, "- N/A -   "
46, 372.526, 0.03803507, 0.00333435, -8.074793E-4, NaN, 0.0897272, "- N/A -   "
48, 383.7468, 0.03978668, 0.00306029, -6.833362E-4, NaN, 0.0592077, "- N/A -   "
50, 393.8454, 0.0412881, 0.00278741, -5.613904E-4, NaN, 0.0897272, "- N/A -   "
52, 403.944, 0.04303968, 0.00250047, -0.000433951, NaN, 0.0897272, "- N/A -   "
54, 414.0426, 0.0447913, 0.002242809, -0.000315301, NaN, 0.0592077, "- N/A -   "
56, 424.1412, 0.04629268, 0.001987492, -0.000194454, NaN, 0.0897272, "- N/A -   "
58, 434.2398, 0.0480443, 0.00172632, -6.81139e-05, NaN, 0.0897272, "- N/A -   "
60, 445.46, 0.04979591, 0.0014628, 5.14156e-05, NaN, 0.0592077, "- N/A -   "
62, 455.559, 0.0512973, 0.00121334, 0.00016628, NaN, 0.0897272, "- N/A -   "
64, 464.5356, 0.05279868, 0.000959196, 2.789568E-4, NaN, 0.119026, "- N/A -   "
66, 475.756, 0.0548005, 7.085637E-4, 3.894456E-4, NaN, 0.0592077, "- N/A -   "
68, 483.611, 0.05630191, 4.754989E-4, 4.889949E-4, NaN, 0.0897272, "- N/A -   "
70, 494.831, 0.05780329, 2.471189E-4, 5.797926E-4, NaN, 0.119026, "- N/A -   "
72, 507.174, 0.0598051, 2.10812e-05, 0.000662933, NaN, 0.0592077, "- N/A -   "
74, 515.0286, 0.06130652, -0.000169157, 7.285696E-4, NaN, 0.0897272, "- N/A -   "
76, 524.0051, 0.0628079, -0.000358284, 7.920186E-4, NaN, 0.119026, "- N/A -   "
78, 536.348, 0.0648098, -5.638568E-4, 8.554676E-4, NaN, 0.0592077, "- N/A -   "
80, 543.08, 0.0663111, -0.000734189, 0.000907977, NaN, 0.0897272, "- N/A -   "
82, 555.423, 0.0678125, -9.127432E-4, 9.648624E-4, NaN, 0.119026, "- N/A -   "
84, 564.4, 0.06981437, -0.00111479, 0.00102831, NaN, 0.0592077, "- N/A -   "
86, 573.3761, 0.07131575, -0.00129335, 0.00108738, NaN, 0.0897272, "- N/A -   "
88, 581.2305, 0.07281713, -0.001464853, 0.00114974, NaN, 0.119026, "- N/A -   "
90, 592.451, 0.07456875, -0.00166455, 0.001225222, NaN, 0.0897272, "- N/A -   "
92, 601.4278, 0.0763204, -0.00184428, 0.00129195, NaN, 0.0897272, "- N/A -   "
94, 610.4043, 0.07782175, -0.00202284, 0.00135868, NaN, 0.119026, "- N/A -   "
96, 621.625, 0.07957336, -0.00223076, 0.00143526, NaN, 0.0897272, "- N/A -   "
98, 630.6015, 0.08132498, -0.00240696, 0.001501991, NaN, 0.0897272, "- N/A -   "
100, 638.456, 0.08282637, -0.0025726, 0.00156982, NaN, 0.119026, "- N/A -   "
102, 650.799, 0.08457798, -0.00276995, 0.0016453, NaN, 0.0897272, "- N/A -   "
104, 659.7752, 0.08632959, -0.0029485, 0.00171312, NaN, 0.0897272, "- N/A -   "
106, 665.386, 0.08783098, -0.00311648, 0.001776572, NaN, 0.119026, "- N/A -   "
108, 677.728, 0.08958259, -0.00331736, 0.00184768, NaN, 0.0897272, "- N/A -   "
110, 687.827, 0.09133421, -0.00350061, 0.00191222, NaN, 0.0897272, "- N/A -   "
112, 695.6814, 0.09283559, -0.00366977, 0.00197129, NaN, 0.0897272, "- N/A -   "
114, 705.7799, 0.0945872, -0.00386594, 0.00203584, NaN, 0.0897272, "- N/A -   "
116, 714.7565, 0.09633882, -0.00406094, 0.0020971, NaN, 0.0897272, "- N/A -   "
118, 724.8551, 0.0978402, -0.00422658, 0.002155078, NaN, 0.0897272, "- N/A -   "
120, 736.076, 0.09959182, -0.0044298, 0.002221809, NaN, 0.0897272, "- N/A -   "
122, 743.93, 0.101343, -0.004613053, 0.00227651, NaN, 0.0897272, "- N/A -   "
124, 754.0288, 0.102845, -0.00478221, 0.00232573, NaN, 0.0897272, "- N/A -   "
126, 751.785, 0.104596, -0.004904379, 0.00224697, NaN, 0.0897272, "- N/A -   "
128, 756.273, 0.106348, -0.005095856, 0.00220431, NaN, 0.0897272, "- N/A -   "
130, 765.2495, 0.107849, -0.00527441, 0.00222618, NaN, 0.0897272, "- N/A -   "
132, 776.47, 0.109601, -0.005477634, 0.00225244, NaN, 0.0897272, "- N/A -   "
134, 785.447, 0.111353, -0.005662062, 0.00227869, NaN, 0.0897272, "- N/A -   "
136, 794.4232, 0.112854, -0.00582417, 0.00230276, NaN, 0.0897272, "- N/A -   "
138, 805.644, 0.114606, -0.006027394, 0.00233667, NaN, 0.0897272, "- N/A -   "
140, 815.7425, 0.116357, -0.006224744, 0.00237824, NaN, 0.0897272, "- N/A -   "
142, 821.3528, 0.117859, -0.00639625, 0.002412156, NaN, 0.0897272, "- N/A -   "
144, 832.574, 0.11961, -0.006602998, 0.002453726, NaN, 0.0897272, "- N/A -   "
146, 843.7942, 0.1213619, -0.006797998, 0.00249311, NaN, 0.0897272, "- N/A -   "
148, 848.2824, 0.122863, -0.0069695, 0.00252155, NaN, 0.0897272, "- N/A -   "
150, 856.1369, 0.124615, -0.00717625, 0.00252155, NaN, 0.0897272, "- N/A -   "
152, 868.4796, 0.126367, -0.007366554, 0.00255984, NaN, 0.0897272, "- N/A -   "
154, 874.09, 0.127868, -0.007550982, 0.00259813, NaN, 0.0897272, "- N/A -   "
156, 885.3106, 0.12962, -0.007750681, 0.002638603, NaN, 0.0897272, "- N/A -   "
158, 890.921, 0.131371, -0.007951556, 0.00267361, NaN, 0.0897272, "- N/A -   "
160, 903.2637, 0.1328725, -0.00813246, 0.00271409, NaN, 0.0897272, "- N/A -   "
162, 913.3623, 0.134624, -0.008340382, 0.00275894, NaN, 0.0897272, "- N/A -   "
164, 923.461, 0.136376, -0.008537731, 0.00280051, NaN, 0.0897272, "- N/A -   "
166, 932.437, 0.137877, -0.00871981, 0.00283989, NaN, 0.0897272, "- N/A -   "
168, 942.536, 0.139629, -0.008921859, 0.00288255, NaN, 0.0897272, "- N/A -   "
170, 952.635, 0.14138, -0.009112161, 0.00292522, NaN, 0.0897272, "- N/A -   "
172, 960.4891, 0.142882, -0.009274269, 0.00294381, NaN, 0.0897272, "- N/A -   "
174, 969.4656, 0.144633, -0.009456348, 0.00297663, NaN, 0.0897272, "- N/A -   "
176, 979.5642, 0.146385, -0.009638427, 0.00301602, NaN, 0.0897272, "- N/A -   "
178, 989.663, 0.147886, -0.009811108, 0.00305649, NaN, 0.0897272, "- N/A -   "
180, 998.639, 0.149638, -0.0100096, 0.00310025, NaN, 0.0897272, "- N/A -   "
182, 1008.74, 0.151139, -0.01019406, 0.00314182, NaN, 0.119026, "- N/A -   "
184, 1018.84, 0.152891, -0.0103797, 0.00318448, NaN, 0.0897272, "- N/A -   "
186, 1026.691, 0.154643, -0.010577, 0.00322824, NaN, 0.0897272, "- N/A -   "
188, 1039.03, 0.156144, -0.0107614, 0.00326872, NaN, 0.119026, "- N/A -   "
190, 1045.77, 0.157896, -0.010947, 0.00331029, NaN, 0.0897272, "- N/A -   "
192, 1055.86, 0.1596472, -0.0111467, 0.00335623, NaN, 0.0897272, "- N/A -   "
194, 1065.96, 0.161149, -0.01133, 0.00339562, NaN, 0.119026, "- N/A -   "
196, 1074.94, 0.1629, -0.0115121, 0.00343828, NaN, 0.0897272, "- N/A -   "
198, 1085.04, 0.1646518, -0.0117071, 0.00348532, NaN, 0.0897272, "- N/A -   "
200, 1095.14, 0.166153, -0.0118821, 0.00352798, NaN, 0.119026, "- N/A -   "
202, 1105.24, 0.1679048, -0.01206771, 0.003571741, NaN, 0.0897272, "- N/A -   "
204, 1116.46, 0.169656, -0.012258, 0.003615499, NaN, 0.0897272, "- N/A -   "
206, 1125.43, 0.1711578, -0.012433, 0.00365816, NaN, 0.119026, "- N/A -   "
208, 1134.41, 0.172909, -0.0126151, 0.00369536, NaN, 0.0897272, "- N/A -   "
210, 1143.386, 0.174661, -0.0128019, 0.00373693, NaN, 0.0897272, "- N/A -   "
212, 1152.36, 0.176162, -0.0129664, 0.0037774, NaN, 0.119026, "- N/A -   "
214, 1164.71, 0.177914, -0.0131355, 0.00381897, NaN, 0.0897272, "- N/A -   "
216, 1174.8, 0.179666, -0.0133082, 0.00385945, NaN, 0.0897272, "- N/A -   "
218, 1182.66, 0.181167, -0.0134715, 0.00389446, NaN, 0.0897272, "- N/A -   "
220, 1193.88, 0.182919, -0.0136442, 0.003934932, NaN, 0.0897272, "- N/A -   "
222, 1202.86, 0.18467, -0.013818, 0.00396994, NaN, 0.0897272, "- N/A -   "
224, 1211.832, 0.186172, -0.0139766, 0.00400057, NaN, 0.0897272, "- N/A -   "
226, 1220.81, 0.187923, -0.0141493, 0.00403448, NaN, 0.0897272, "- N/A -   "
228, 1230.91, 0.189675, -0.01433136, 0.00406621, NaN, 0.0897272, "- N/A -   "
230, 1239.88, 0.191176, -0.014497, 0.00409684, NaN, 0.0897272, "- N/A -   "
232, 1248.86, 0.192928, -0.0146673, 0.004130749, NaN, 0.0897272, "- N/A -   "
234, 1260.08, 0.1946795, -0.01484, 0.004170131, NaN, 0.0897272, "- N/A -   "
236, 1266.81, 0.196181, -0.0149986, 0.004201855, NaN, 0.0897272, "- N/A -   "
238, 1279.156, 0.197932, -0.0151677, 0.00423686, NaN, 0.0897272, "- N/A -   "
240, 1289.25, 0.1996841, -0.0153451, 0.004272962, NaN, 0.0897272, "- N/A -   "
242, 1297.11, 0.201185, -0.0155025, 0.004302499, NaN, 0.0897272, "- N/A -   "
244, 1308.33, 0.2029371, -0.0156764, 0.004335317, NaN, 0.0897272, "- N/A -   "
246, 1318.43, 0.204689, -0.0158538, 0.00436923, NaN, 0.0897272, "- N/A -   "
248, 1327.4, 0.20619, -0.0160112, 0.00439986, NaN, 0.0897272, "- N/A -   "
250, 1337.5, 0.207942, -0.016178, 0.00443158, NaN, 0.0897272, "- N/A -   "
252, 1346.48, 0.209693, -0.0163495, 0.004462215, NaN, 0.0897272, "- N/A -   "
254, 1356.58, 0.211195, -0.0165069, 0.00449175, NaN, 0.0897272, "- N/A -   "
256, 1365.56, 0.212946, -0.0166761, 0.00452457, NaN, 0.0897272, "- N/A -   "
258, 1376.78, 0.214698, -0.0168429, 0.004557389, NaN, 0.0897272, "- N/A -   "
260, 1384.63, 0.216199, -0.0169956, 0.00458583, NaN, 0.0897272, "- N/A -   "
262, 1395.851, 0.217951, -0.0171589, 0.004615368, NaN, 0.0897272, "- N/A -   "
264, 1403.71, 0.219452, -0.0173139, 0.004645998, NaN, 0.119026, "- N/A -   "
266, 1412.682, 0.221204, -0.0174655, 0.004672253, NaN, 0.0897272, "- N/A -   "
268, 1423.9, 0.222956, -0.0176299, 0.0047007, NaN, 0.0897272, "- N/A -   "
270, 1434, 0.224457, -0.0178026, 0.00472695, NaN, 0.119026, "- N/A -   "
272, 1441.86, 0.226209, -0.01795649, 0.004752111, NaN, 0.0897272, "- N/A -   "
274, 1454.2, 0.22796, -0.0181209, 0.004777272, NaN, 0.0897272, "- N/A -   "
276, 1464.3, 0.229462, -0.0182784, 0.004804621, NaN, 0.119026, "- N/A -   "
278, 1472.15, 0.231213, -0.0184405, 0.00483088, NaN, 0.0897272, "- N/A -   "
280, 1482.25, 0.232965, -0.0186084, 0.00485604, NaN, 0.0897272, "- N/A -   "
282, 1490.1, 0.234466, -0.0187706, 0.00488229, NaN, 0.119026, "- N/A -   "
284, 1501.33, 0.236218, -0.0189268, 0.004906358, NaN, 0.0897272, "- N/A -   "
286, 1511.42, 0.2379694, -0.019083, 0.004931519, NaN, 0.0897272, "- N/A -   "
288, 1519.28, 0.2394708, -0.0192404, 0.00495668, NaN, 0.119026, "- N/A -   "
290, 1530.499, 0.2412224, -0.0193955, 0.00498075, NaN, 0.0897272, "- N/A -   "
292, 1539.48, 0.242974, -0.0195553, 0.00500263, NaN, 0.0897272, "- N/A -   "
294, 1549.57, 0.244475, -0.0197021, 0.0050245, NaN, 0.119026, "- N/A -   "
296, 1558.55, 0.246227, -0.01986303, 0.00504748, NaN, 0.0897272, "- N/A -   "
298, 1567.53, 0.247979, -0.0200228, 0.00507483, NaN, 0.0897272, "- N/A -   "
300, 1576.5, 0.24948, -0.0201708, 0.005102175, NaN, 0.119026, "- N/A -   "
302, 1585.48, 0.2512316, -0.0203035, 0.005136087, NaN, 0.0897272, "- N/A -   "
304, 1595.58, 0.252983, -0.0204363, 0.00517547, NaN, 0.0897272, "- N/A -   "
306, 1603.43, 0.254485, -0.0205643, 0.00520282, NaN, 0.119026, "- N/A -   "
308, 1613.53, 0.256236, -0.0207123, 0.005232355, NaN, 0.0897272, "- N/A -   "
310, 1624.75, 0.257988, -0.020858, 0.005261891, NaN, 0.0897272, "- N/A -   "
312, 1632.607, 0.259489, -0.02099779, 0.005290334, NaN, 0.119026, "- N/A -   "
314, 1642.71, 0.261241, -0.02114698, 0.00532096, NaN, 0.0897272, "- N/A -   "
316, 1649.438, 0.262992, -0.0212985, 0.005350501, NaN, 0.0897272, "- N/A -   "
318, 1659.54, 0.264494, -0.0214313, 0.00537676, NaN, 0.119026, "- N/A -   "
320, 1668.51, 0.266245, -0.021584, 0.005404105, NaN, 0.0897272, "- N/A -   "
322, 1681.978, 0.2679971, -0.0217296, 0.005431453, NaN, 0.0897272, "- N/A -   "
324, 1688.71, 0.269498, -0.02186237, 0.00545771, NaN, 0.0897272, "- N/A -   "
326, 1698.809, 0.2712501, -0.0220104, 0.005481775, NaN, 0.0897272, "- N/A -   "
328, 1707.79, 0.2730017, -0.0221596, 0.005506936, NaN, 0.0897272, "- N/A -   "
330, 1716.76, 0.274503, -0.0222888, 0.00552991, NaN, 0.0897272, "- N/A -   "
332, 1725.74, 0.2762547, -0.0224333, 0.005556163, NaN, 0.0897272, "- N/A -   "
334, 1735.84, 0.278006, -0.0225778, 0.00558023, NaN, 0.0897272, "- N/A -   "
336, 1745.94, 0.2795077, -0.0227058, 0.005601015, NaN, 0.0897272, "- N/A -   "
338, 1753.79, 0.2812593, -0.0228503, 0.00562399, NaN, 0.0897272, "- N/A -   "
340, 1765.01, 0.283011, -0.02298891, 0.005645867, NaN, 0.0897272, "- N/A -   "
342, 1772.87, 0.2845123, -0.0231134, 0.005664464, NaN, 0.0897272, "- N/A -   "
344, 1782.964, 0.2862639, -0.0232567, 0.005684155, NaN, 0.0897272, "- N/A -   "
346, 1795.31, 0.288016, -0.0233977, 0.00570275, NaN, 0.0897272, "- N/A -   "
348, 1799.79, 0.289517, -0.02352575, 0.005722443, NaN, 0.0897272, "- N/A -   "
350, 1811.02, 0.291269, -0.023662, 0.00574323, NaN, 0.0897272, "- N/A -   "
352, 1819.99, 0.29302, -0.0237948, 0.00576292, NaN, 0.0897272, "- N/A -   "
354, 1830.09, 0.294522, -0.02392045, 0.005778235, NaN, 0.0897272, "- N/A -   "
356, 1840.19, 0.296273, -0.0240567, 0.005794644, NaN, 0.0897272, "- N/A -   "
358, 1850.288, 0.297775, -0.0241918, 0.00580996, NaN, 0.119026, "- N/A -   "
360, 1857.02, 0.299526, -0.0243198, 0.00582856, NaN, 0.0897272, "- N/A -   "
362, 1868.24, 0.301278, -0.0244573, 0.00584825, NaN, 0.0897272, "- N/A -   "
364, 1877.22, 0.302779, -0.02458533, 0.00586794, NaN, 0.119026, "- N/A -   "
366, 1887.32, 0.304531, -0.0247134, 0.005885442, NaN, 0.0897272, "- N/A -   "
368, 1895.17, 0.3062824, -0.0248567, 0.00590404, NaN, 0.0897272, "- N/A -   "
370, 1903.025, 0.307784, -0.0249847, 0.005921542, NaN, 0.119026, "- N/A -   "
372, 1915.37, 0.309535, -0.02511917, 0.00594014, NaN, 0.0897272, "- N/A -   "
374, 1925.47, 0.311287, -0.02525722, 0.00596202, NaN, 0.0897272, "- N/A -   "
376, 1933.32, 0.3127884, -0.0253858, 0.00597843, NaN, 0.119026, "- N/A -   "
378, 1943.42, 0.31454, -0.0255156, 0.005999212, NaN, 0.0897272, "- N/A -   "
380, 1953.52, 0.3162916, -0.0256513, 0.00602109, NaN, 0.0897272, "- N/A -   "
382, 1963.62, 0.317793, -0.0257752, 0.0060375, NaN, 0.119026, "- N/A -   "
384, 1971.47, 0.3195446, -0.0259156, 0.006055004, NaN, 0.0897272, "- N/A -   "
386, 1981.57, 0.321296, -0.0260584, 0.006074695, NaN, 0.0897272, "- N/A -   "
388, 1990.55, 0.322798, -0.0261728, 0.006091104, NaN, 0.119026, "- N/A -   "
390, 2000.64, 0.324549, -0.0263014, 0.006110795, NaN, 0.0897272, "- N/A -   "
392, 2010.74, 0.326301, -0.0264289, 0.00613158, NaN, 0.0897272, "- N/A -   "
394, 2016.35, 0.327802, -0.0265539, 0.0061469, NaN, 0.119026, "- N/A -   "
396, 2027.57, 0.329554, -0.0266849, 0.00616659, NaN, 0.0897272, "- N/A -   "
398, 2035.429, 0.331305, -0.0268171, 0.006189559, NaN, 0.0897272, "- N/A -   "
400, 2046.65, 0.332807, -0.02692326, 0.00620816, NaN, 0.119026, "- N/A -   "
402, 2056.75, 0.334558, -0.0270625, 0.006226754, NaN, 0.0897272, "- N/A -   "
404, 2065.72, 0.3363101, -0.0271946, 0.006246445, NaN, 0.0897272, "- N/A -   "
406, 2073.579, 0.337811, -0.02732089, 0.00626395, NaN, 0.119026, "- N/A -   "
408, 2081.43, 0.339563, -0.02744832, 0.00628692, NaN, 0.0897272, "- N/A -   "
410, 2090.41, 0.3413147, -0.02755923, 0.00631427, NaN, 0.0897272, "- N/A -   "
412, 2094.9, 0.342816, -0.027656, 0.00633396, NaN, 0.119026, "- N/A -   "
414, 2104.997, 0.3445677, -0.0277811, 0.00635146, NaN, 0.0897272, "- N/A -   "
416, 2115.1, 0.346319, -0.0279026, 0.006367873, NaN, 0.0897272, "- N/A -   "
418, 2122.95, 0.347821, -0.0280076, 0.006381, NaN, 0.119026, "- N/A -   "
420, 2133.05, 0.3495723, -0.0281386, 0.006399597, NaN, 0.0897272, "- N/A -   "
422, 2143.15, 0.351324, -0.02826128, 0.006417101, NaN, 0.0897272, "- N/A -   "
424, 2149.88, 0.352825, -0.0283639, 0.0064346, NaN, 0.119026, "- N/A -   "
426, 2158.86, 0.354577, -0.028489, 0.006453201, NaN, 0.0897272, "- N/A -   "
428, 2168.95, 0.3560783, -0.0286105, 0.0064718, NaN, 0.119026, "- N/A -   "
430, 2174.57, 0.3578299, -0.0287167, 0.00648821, NaN, 0.0897272, "- N/A -   "
432, 2185.786, 0.359582, -0.0288453, 0.00650571, NaN, 0.0897272, "- N/A -   "
434, 2197.01, 0.361083, -0.0289692, 0.00652212, NaN, 0.119026, "- N/A -   "
436, 2204.861, 0.3628345, -0.029086, 0.006538529, NaN, 0.0897272, "- N/A -   "
438, 2214.96, 0.364586, -0.0292241, 0.006556032, NaN, 0.0897272, "- N/A -   "
440, 2222.81, 0.3660875, -0.0293515, 0.006575723, NaN, 0.119026, "- N/A -   "
442, 2231.79, 0.367839, -0.02947187, 0.006597602, NaN, 0.0897272, "- N/A -   "
444, 2240.77, 0.369591, -0.0296111, 0.006616199, NaN, 0.0897272, "- N/A -   "
446, 2248.62, 0.3710921, -0.0297267, 0.006636984, NaN, 0.119026, "- N/A -   "
448, 2258.72, 0.372844, -0.0298459, 0.006654487, NaN, 0.0897272, "- N/A -   "
450, 2269.941, 0.374595, -0.0299899, 0.0066698, NaN, 0.0897272, "- N/A -   "
452, 2277.8, 0.376097, -0.0301126, 0.006686212, NaN, 0.119026, "- N/A -   "
454, 2287.894, 0.377848, -0.0302317, 0.006701527, NaN, 0.0897272, "- N/A -   "
456, 2295.75, 0.3796, -0.0303627, 0.00671903, NaN, 0.0897272, "- N/A -   "
458, 2303.603, 0.381101, -0.0304689, 0.00673653, NaN, 0.119026, "- N/A -   "
460, 2313.7, 0.382853, -0.03057981, 0.006750755, NaN, 0.0897272, "- N/A -   "
462, 2323.8, 0.384605, -0.03070842, 0.00676169, NaN, 0.0897272, "- N/A -   "
464, 2329.41, 0.386106, -0.0308193, 0.00677701, NaN, 0.119026, "- N/A -   "
466, 2338.387, 0.3878576, -0.0309338, 0.006787949, NaN, 0.0897272, "- N/A -   "
468, 2350.73, 0.3896092, -0.0310589, 0.00680326, NaN, 0.0897272, "- N/A -   "
470, 2356.34, 0.3911106, -0.0311391, 0.00679232, NaN, 0.119026, "- N/A -   "
472, 2364.19, 0.3928622, -0.03125, 0.00680655, NaN, 0.0897272, "- N/A -   "
474, 2374.293, 0.3946138, -0.0313739, 0.006819674, NaN, 0.0897272, "- N/A -   "
476, 2384.39, 0.3961152, -0.0314706, 0.00683171, NaN, 0.119026, "- N/A -   "
478, 2392.25, 0.397867, -0.031591, 0.00684374, NaN, 0.0897272, "- N/A -   "
480, 2403.47, 0.399618, -0.0317243, 0.006857962, NaN, 0.0897272, "- N/A -   "
482, 2407.96, 0.40112, -0.031827, 0.00687, NaN, 0.119026, "- N/A -   "
484, 2419.18, 0.402871, -0.0319497, 0.00688312, NaN, 0.0897272, "- N/A -   "
486, 2429.27, 0.404623, -0.0320724, 0.006898438, NaN, 0.0897272, "- N/A -   "
488, 2439.373, 0.406124, -0.0321739, 0.00691047, NaN, 0.119026, "- N/A -   "
490, 2446.11, 0.407876, -0.0322966, 0.006922505, NaN, 0.0897272, "- N/A -   "
492, 2455.082, 0.409628, -0.0324264, 0.006933444, NaN, 0.0897272, "- N/A -   "
494, 2462.94, 0.411129, -0.0325243, 0.00694548, NaN, 0.119026, "- N/A -   "
496, 2473.035, 0.4128807, -0.032647, 0.00695861, NaN, 0.0897272, "- N/A -   "
498, 2482.01, 0.4146323, -0.0327756, 0.00697392, NaN, 0.0897272, "- N/A -   "
500, 2488.744, 0.416134, -0.0328806, 0.00698595, NaN, 0.119026, "- N/A -   "
502, 2498.84, 0.417885, -0.03300571, 0.006993612, NaN, 0.0897272, "- N/A -   "
504, 2511.19, 0.4196369, -0.0331355, 0.00700455, NaN, 0.0897272, "- N/A -   "
506, 2517.92, 0.4211383, -0.0332346, 0.00701221, NaN, 0.119026, "- N/A -   "
508, 2526.89, 0.4228899, -0.0333738, 0.00702424, NaN, 0.0897272, "- N/A -   "
510, 2538.115, 0.424642, -0.0335084, 0.007038463, NaN, 0.0897272, "- N/A -   "
512, 2544.85, 0.4261429, -0.0336086, 0.0070494, NaN, 0.119026, "- N/A -   "
514, 2553.824, 0.4278945, -0.0337325, 0.007064718, NaN, 0.0897272, "- N/A -   "
516, 2560.56, 0.429646, -0.0338588, 0.00708113, NaN, 0.0897272, "- N/A -   "
518, 2570.65, 0.431148, -0.03395554, 0.007097536, NaN, 0.119026, "- N/A -   "
520, 2581.88, 0.432899, -0.03409005, 0.00711176, NaN, 0.0897272, "- N/A -   "
522, 2589.73, 0.434651, -0.0342151, 0.007125979, NaN, 0.0897272, "- N/A -   "
524, 2597.58, 0.436152, -0.0343142, 0.00713692, NaN, 0.119026, "- N/A -   "
526, 2607.68, 0.437904, -0.0344417, 0.00715005, NaN, 0.0897272, "- N/A -   "
528, 2616.66, 0.439655, -0.0345691, 0.00716427, NaN, 0.0897272, "- N/A -   "
530, 2622.27, 0.441157, -0.03468119, 0.00718068, NaN, 0.119026, "- N/A -   "
532, 2632.37, 0.442908, -0.0348145, 0.00719818, NaN, 0.0897272, "- N/A -   "
534, 2643.589, 0.44466, -0.0349408, 0.007213495, NaN, 0.0897272, "- N/A -   "
536, 2649.2, 0.446161, -0.0350387, 0.007224434, NaN, 0.0897272, "- N/A -   "
538, 2660.42, 0.447913, -0.03517557, 0.00723866, NaN, 0.0897272, "- N/A -   "
540, 2669.4, 0.4496646, -0.03529828, 0.00725178, NaN, 0.0897272, "- N/A -   "
542, 2676.13, 0.451166, -0.0354033, 0.007262722, NaN, 0.0897272, "- N/A -   "
544, 2686.23, 0.452918, -0.035539, 0.00727585, NaN, 0.0897272, "- N/A -   "
546, 2696.33, 0.454419, -0.0356605, 0.007291165, NaN, 0.119026, "- N/A -   "
548, 2703.06, 0.456171, -0.035762, 0.007302105, NaN, 0.0897272, "- N/A -   "
550, 2713.16, 0.4579222, -0.03590122, 0.00731742, NaN, 0.0897272, "- N/A -   "
552, 2721.01, 0.459424, -0.0360404, 0.00733055, NaN, 0.119026, "- N/A -   "
554, 2728.87, 0.461175, -0.03615372, 0.007344769, NaN, 0.0897272, "- N/A -   "
556, 2737.84, 0.4629268, -0.0362977, 0.00737102, NaN, 0.0897272, "- N/A -   "
558, 2746.82, 0.464428, -0.0364074, 0.00738853, NaN, 0.119026, "- N/A -   "
560, 2751.31, 0.4661798, -0.03651123, 0.007402748, NaN, 0.0897272, "- N/A -   "
562, 2760.284, 0.467931, -0.03665636, 0.007441036, NaN, 0.0897272, "- N/A -   "
564, 2767.02, 0.469433, -0.0367661, 0.007461821, NaN, 0.119026, "- N/A -   "
566, 2774.871, 0.4711844, -0.0368581, 0.007479324, NaN, 0.0897272, "- N/A -   "
568, 2786.09, 0.472936, -0.03697494, 0.00749683, NaN, 0.0897272, "- N/A -   "
570, 2793.946, 0.474437, -0.03708, 0.007513237, NaN, 0.119026, "- N/A -   "
572, 2800.68, 0.476189, -0.0371885, 0.007526364, NaN, 0.0897272, "- N/A -   "
574, 2811.9, 0.477941, -0.0373242, 0.00754496, NaN, 0.0897272, "- N/A -   "
576, 2820.88, 0.479442, -0.0374375, 0.00756465, NaN, 0.119026, "- N/A -   "
578, 2825.364, 0.481194, -0.03747994, 0.007635759, NaN, 0.0897272, "- N/A -   "
580, 2836.58, 0.482945, -0.0375979, 0.007671859, NaN, 0.0897272, "- N/A -   "
582, 2843.32, 0.484447, -0.0377088, 0.00769264, NaN, 0.119026, "- N/A -   "
584, 2851.17, 0.486198, -0.0378304, 0.00771234, NaN, 0.0897272, "- N/A -   "
586, 2862.39, 0.48795, -0.0379767, 0.00773203, NaN, 0.0897272, "- N/A -   "
588, 2869.12, 0.489451, -0.0381029, 0.007747342, NaN, 0.119026, "- N/A -   "
590, 2879.22, 0.4912029, -0.0382268, 0.007760469, NaN, 0.0897272, "- N/A -   "
592, 2888.2, 0.492954, -0.0383696, 0.00777688, NaN, 0.0897272, "- N/A -   "
594, 2897.176, 0.494456, -0.0384817, 0.00779001, NaN, 0.119026, "- N/A -   "
596, 2903.91, 0.4962075, -0.038615, 0.007806415, NaN, 0.0897272, "- N/A -   "
598, 2915.13, 0.4979591, -0.0387554, 0.007826106, NaN, 0.0897272, "- N/A -   "
600, 2921.86, 0.4994605, -0.03886044, 0.007843609, NaN, 0.119026, "- N/A -   "
602, 2931.96, 0.5012121, -0.03898197, 0.007860018, NaN, 0.0897272, "- N/A -   "
604, 2940.94, 0.5029637, -0.03912592, 0.007874239, NaN, 0.0897272, "- N/A -   "
606, 2946.547, 0.5044651, -0.03925453, 0.007882992, NaN, 0.119026, "- N/A -   "
608, 2955.52, 0.5062167, -0.0393867, 0.007896119, NaN, 0.0897272, "- N/A -   "
610, 2964.5, 0.507968, -0.03954361, 0.007907058, NaN, 0.0897272, "- N/A -   "
612, 2973.48, 0.5094697, -0.0396604, 0.007911434, NaN, 0.119026, "- N/A -   "
614, 2982.45, 0.511221, -0.03980673, 0.007923467, NaN, 0.0897272, "- N/A -   "
616, 2992.552, 0.512973, -0.0399507, 0.007937689, NaN, 0.0897272, "- N/A -   "
618, 2999.28, 0.514474, -0.0400651, 0.007950816, NaN, 0.119026, "- N/A -   "
620, 3007.14, 0.516226, -0.04019964, 0.007962849, NaN, 0.0897272, "- N/A -   "
622, 3017.24, 0.5179776, -0.0403519, 0.007979259, NaN, 0.0897272, "- N/A -   "
624, 3021.73, 0.5194789, -0.0404722, 0.007989104, NaN, 0.119026, "- N/A -   "
626, 3034.07, 0.5212306, -0.04061497, 0.00800442, NaN, 0.0897272, "- N/A -   "
628, 3040.8, 0.5229822, -0.0407707, 0.008019735, NaN, 0.0897272, "- N/A -   "
630, 3049.78, 0.524484, -0.04088045, 0.008031768, NaN, 0.119026, "- N/A -   "
632, 3057.63, 0.526235, -0.0410114, 0.008042708, NaN, 0.0897272, "- N/A -   "
634, 3067.73, 0.527987, -0.04115301, 0.008053647, NaN, 0.0897272, "- N/A -   "
636, 3074.463, 0.529488, -0.04127572, 0.008061305, NaN, 0.119026, "- N/A -   "
638, 3084.56, 0.5312398, -0.0414173, 0.008071151, NaN, 0.0897272, "- N/A -   "
640, 3090.17, 0.5329914, -0.04141377, 0.008090842, NaN, 0.0897272, "- N/A -   "
642, 3095.782, 0.5344928, -0.0414893, 0.008080996, NaN, 0.0897272, "- N/A -   "
644, 3104.76, 0.5362444, -0.0416203, 0.008085372, NaN, 0.0897272, "- N/A -   "
646, 3114.86, 0.537996, -0.0417607, 0.008095217, NaN, 0.0897272, "- N/A -   "
648, 3120.47, 0.5394974, -0.04186922, 0.008106156, NaN, 0.0897272, "- N/A -   "
650, 3130.57, 0.541249, -0.04200491, 0.008119284, NaN, 0.0897272, "- N/A -   "
652, 3139.54, 0.543001, -0.0421536, 0.008132411, NaN, 0.0897272, "- N/A -   "
654, 3147.397, 0.544502, -0.0422751, 0.008145539, NaN, 0.0897272, "- N/A -   "
656, 3156.37, 0.5462536, -0.04240726, 0.008138975, NaN, 0.0897272, "- N/A -   "
658, 3165.35, 0.5480052, -0.0425488, 0.008142257, NaN, 0.0897272, "- N/A -   "
660, 3174.33, 0.5495066, -0.0426633, 0.008147727, NaN, 0.0897272, "- N/A -   "
662, 3183.3, 0.5512582, -0.0428002, 0.008154291, NaN, 0.0897272, "- N/A -   "
664, 3191.16, 0.55276, -0.0429335, 0.008157573, NaN, 0.119026, "- N/A -   "
666, 3199.01, 0.554511, -0.0430527, 0.008161948, NaN, 0.0897272, "- N/A -   "
668, 3209.11, 0.556263, -0.04318954, 0.0081707, NaN, 0.0897272, "- N/A -   "
670, 3216.965, 0.557764, -0.04333231, 0.008181639, NaN, 0.119026, "- N/A -   "
672, 3223.7, 0.559516, -0.0434538, 0.008189296, NaN, 0.0897272, "- N/A -   "
674, 3231.55, 0.561267, -0.0435966, 0.008198048, NaN, 0.0897272, "- N/A -   "
676, 3240.53, 0.5627689, -0.0437394, 0.008204612, NaN, 0.119026, "- N/A -   "
678, 3249.51, 0.5645205, -0.043868, 0.008213364, NaN, 0.0897272, "- N/A -   "
680, 3258.48, 0.5662721, -0.0440084, 0.008221022, NaN, 0.0897272, "- N/A -   "
682, 3267.46, 0.567773, -0.04414055, 0.008227585, NaN, 0.119026, "- N/A -   "
684, 3274.19, 0.5695251, -0.044268, 0.008234149, NaN, 0.0897272, "- N/A -   "
686, 3282.05, 0.571277, -0.04440721, 0.008240713, NaN, 0.0897272, "- N/A -   "
688, 3291.02, 0.5727781, -0.0445346, 0.008246182, NaN, 0.119026, "- N/A -   "
690, 3298.876, 0.5745297, -0.0446656, 0.008251651, NaN, 0.0897272, "- N/A -   "
692, 3306.73, 0.5762813, -0.04480366, 0.008258215, NaN, 0.0897272, "- N/A -   "
694, 3314.585, 0.5777827, -0.04493817, 0.008262591, NaN, 0.119026, "- N/A -   "
696, 3322.44, 0.579534, -0.04506678, 0.008266967, NaN, 0.0897272, "- N/A -   "
698, 3331.416, 0.581286, -0.04520719, 0.008272436, NaN, 0.0897272, "- N/A -   "
700, 3340.39, 0.582787, -0.0453346, 0.008277906, NaN, 0.119026, "- N/A -   "
702, 3347.125, 0.584539, -0.04547385, 0.008283377, NaN, 0.0897272, "- N/A -   "
704, 3356.1, 0.586291, -0.0456107, 0.008292127, NaN, 0.0897272, "- N/A -   "
706, 3362.83, 0.5877919, -0.0457429, 0.008301973, NaN, 0.119026, "- N/A -   "
708, 3370.69, 0.5895435, -0.0458821, 0.008311819, NaN, 0.0897272, "- N/A -   "
710, 3379.66, 0.5912952, -0.04602487, 0.00832057, NaN, 0.0897272, "- N/A -   "
712, 3385.28, 0.592797, -0.0461511, 0.008326041, NaN, 0.119026, "- N/A -   "
714, 3393.13, 0.594548, -0.0462845, 0.008330417, NaN, 0.0897272, "- N/A -   "
716, 3404.35, 0.5963, -0.0464213, 0.00833698, NaN, 0.0897272, "- N/A -   "
718, 3411.08, 0.597801, -0.0465476, 0.008341355, NaN, 0.119026, "- N/A -   "
720, 3418.94, 0.599553, -0.0466974, 0.008351201, NaN, 0.0897272, "- N/A -   "
722, 3426.79, 0.6013044, -0.0468426, 0.00835886, NaN, 0.0897272, "- N/A -   "
724, 3434.646, 0.6028058, -0.04696172, 0.008366517, NaN, 0.119026, "- N/A -   "
726, 3442.5, 0.6045574, -0.0470998, 0.00837527, NaN, 0.0897272, "- N/A -   "
728, 3453.72, 0.606309, -0.0472307, 0.008382926, NaN, 0.0897272, "- N/A -   "
730, 3455.97, 0.6078104, -0.0473535, 0.008390583, NaN, 0.119026, "- N/A -   "
732, 3467.186, 0.609562, -0.0475021, 0.008400429, NaN, 0.0897272, "- N/A -   "
734, 3472.8, 0.611314, -0.0476484, 0.008406993, NaN, 0.0897272, "- N/A -   "
736, 3479.53, 0.612815, -0.0477688, 0.008417932, NaN, 0.119026, "- N/A -   "
738, 3488.51, 0.6145666, -0.0479186, 0.008428872, NaN, 0.0897272, "- N/A -   "
740, 3497.482, 0.616318, -0.04805668, 0.008440905, NaN, 0.0897272, "- N/A -   "
742, 3504.21, 0.6178196, -0.04817939, 0.008447469, NaN, 0.119026, "- N/A -   "
744, 3513.191, 0.6195712, -0.04832806, 0.00845622, NaN, 0.0897272, "- N/A -   "
746, 3522.17, 0.6213229, -0.048472, 0.008464972, NaN, 0.0897272, "- N/A -   "
748, 3528.9, 0.622824, -0.0485924, 0.00847154, NaN, 0.0897272, "- N/A -   "
750, 3539, 0.624576, -0.04873631, 0.008478099, NaN, 0.0897272, "- N/A -   "
752, 3545.73, 0.6263274, -0.0488779, 0.008483569, NaN, 0.0897272, "- N/A -   "
754, 3551.341, 0.627829, -0.04899825, 0.008490133, NaN, 0.0897272, "- N/A -   "
756, 3561.44, 0.62958, -0.0491469, 0.008499978, NaN, 0.0897272, "- N/A -   "
758, 3570.42, 0.631332, -0.0492838, 0.00850873, NaN, 0.0897272, "- N/A -   "
760, 3577.15, 0.6328335, -0.0494018, 0.008516388, NaN, 0.0897272, "- N/A -   "
762, 3583.881, 0.6345851, -0.0495528, 0.008522951, NaN, 0.0897272, "- N/A -   "
764, 3592.86, 0.6360864, -0.0496873, 0.008526233, NaN, 0.119026, "- N/A -   "
766, 3598.468, 0.637838, -0.0498089, 0.008527326, NaN, 0.0897272, "- N/A -   "
768, 3606.32, 0.63959, -0.0499587, 0.008532796, NaN, 0.0897272, "- N/A -   "
770, 3615.3, 0.6410911, -0.05009574, 0.008540454, NaN, 0.119026, "- N/A -   "
772, 3619.79, 0.6428427, -0.0502234, 0.008548112, NaN, 0.0897272, "- N/A -   "
774, 3628.76, 0.6445943, -0.0503723, 0.008556863, NaN, 0.0897272, "- N/A -   "
776, 3637.74, 0.646096, -0.0505047, 0.008565615, NaN, 0.119026, "- N/A -   "
778, 3644.47, 0.6478473, -0.05063, 0.00857546, NaN, 0.0897272, "- N/A -   "
780, 3652.327, 0.6495989, -0.0507695, 0.0085864, NaN, 0.0897272, "- N/A -   "
782, 3657.94, 0.6511003, -0.0508971, 0.008595152, NaN, 0.119026, "- N/A -   "
784, 3666.914, 0.652852, -0.0510236, 0.008608279, NaN, 0.0897272, "- N/A -   "
786, 3674.77, 0.654604, -0.05117843, 0.008620312, NaN, 0.0897272, "- N/A -   "
788, 3682.62, 0.656105, -0.05130845, 0.00863344, NaN, 0.119026, "- N/A -   "
790, 3689.36, 0.6578565, -0.0514515, 0.008648755, NaN, 0.0897272, "- N/A -   "
792, 3698.33, 0.6596081, -0.05159449, 0.008659694, NaN, 0.0897272, "- N/A -   "
794, 3703.94, 0.6611095, -0.05172687, 0.008671728, NaN, 0.119026, "- N/A -   "
796, 3714.04, 0.662861, -0.05186398, 0.008681574, NaN, 0.0897272, "- N/A -   "
798, 3721.9, 0.664613, -0.0520035, 0.008689231, NaN, 0.0897272, "- N/A -   "
800, 3725.26, 0.6661141, -0.0521122, 0.008704546, NaN, 0.119026, "- N/A -   "
802, 3735.36, 0.667866, -0.0522528, 0.008715486, NaN, 0.0897272, "- N/A -   "
804, 3742.09, 0.669617, -0.05240651, 0.008725331, NaN, 0.0897272, "- N/A -   "
806, 3752.19, 0.671119, -0.0525306, 0.008734083, NaN, 0.119026, "- N/A -   "
808, 3757.8, 0.6728704, -0.0526795, 0.008745022, NaN, 0.0897272, "- N/A -   "
810, 3766.78, 0.674622, -0.0528131, 0.008754868, NaN, 0.0897272, "- N/A -   "
812, 3773.51, 0.6761233, -0.0529136, 0.008767995, NaN, 0.119026, "- N/A -   "
814, 3779.12, 0.6778749, -0.0530483, 0.008778935, NaN, 0.0897272, "- N/A -   "
816, 3786.975, 0.6796266, -0.0531807, 0.008790969, NaN, 0.0897272, "- N/A -   "
818, 3791.46, 0.681128, -0.053293, 0.008800814, NaN, 0.119026, "- N/A -   "
820, 3801.562, 0.6828796, -0.053423, 0.008809566, NaN, 0.0897272, "- N/A -   "
822, 3809.42, 0.6846312, -0.0535566, 0.008817223, NaN, 0.0897272, "- N/A -   "
824, 3815.03, 0.6861326, -0.053657, 0.008823787, NaN, 0.119026, "- N/A -   "
826, 3824, 0.687884, -0.0538001, 0.00883254, NaN, 0.0897272, "- N/A -   "
828, 3831.858, 0.6893856, -0.05393362, 0.008840196, NaN, 0.119026, "- N/A -   "
830, 3838.59, 0.6911372, -0.0540577, 0.008850042, NaN, 0.119026, "- N/A -   "
832, 3847.57, 0.6928888, -0.0542043, 0.008860981, NaN, 0.0897272, "- N/A -   "
834, 3854.299, 0.69439, -0.0543438, 0.008869733, NaN, 0.119026, "- N/A -   "
836, 3861.03, 0.696142, -0.0544643, 0.008875202, NaN, 0.119026, "- N/A -   "
838, 3867.764, 0.6978934, -0.05460853, 0.008881766, NaN, 0.0897272, "- N/A -   "
840, 3876.74, 0.6993948, -0.0547326, 0.008887236, NaN, 0.119026, "- N/A -   "
842, 3883.47, 0.7011464, -0.05484256, 0.008889424, NaN, 0.119026, "- N/A -   "
844, 3892.45, 0.702898, -0.0549773, 0.008891611, NaN, 0.0897272, "- N/A -   "
846, 3899.18, 0.704399, -0.05510023, 0.008892706, NaN, 0.119026, "- N/A -   "
848, 3904.792, 0.706151, -0.055209, 0.008892706, NaN, 0.119026, "- N/A -   "
850, 3913.77, 0.707903, -0.0553555, 0.008900363, NaN, 0.0897272, "- N/A -   "
852, 3922.745, 0.709404, -0.0554785, 0.008903645, NaN, 0.119026, "- N/A -   "
854, 3927.23, 0.711156, -0.05560139, 0.008911302, NaN, 0.0897272, "- N/A -   "
856, 3937.332, 0.712907, -0.0557539, 0.008923336, NaN, 0.0897272, "- N/A -   "
858, 3942.94, 0.7144087, -0.0558792, 0.008933181, NaN, 0.119026, "- N/A -   "
860, 3949.67, 0.7161603, -0.0559997, 0.008945215, NaN, 0.0897272, "- N/A -   "
862, 3959.77, 0.7179119, -0.05615101, 0.00895506, NaN, 0.0897272, "- N/A -   "
864, 3965.38, 0.7194133, -0.0562716, 0.00896162, NaN, 0.119026, "- N/A -   "
866, 3973.238, 0.7211649, -0.05639568, 0.008970376, NaN, 0.0897272, "- N/A -   "
868, 3982.21, 0.7229165, -0.0565387, 0.008981315, NaN, 0.0897272, "- N/A -   "
870, 3987.825, 0.7244179, -0.0566533, 0.008990067, NaN, 0.119026, "- N/A -   "
872, 3995.68, 0.7261695, -0.0567692, 0.008998819, NaN, 0.0897272, "- N/A -   "
874, 4004.656, 0.7279211, -0.0569016, 0.009006476, NaN, 0.0897272, "- N/A -   "
876, 4010.266, 0.7294225, -0.0569867, 0.009022885, NaN, 0.119026, "- N/A -   "
878, 4015.88, 0.7311741, -0.05708714, 0.009036013, NaN, 0.0897272, "- N/A -   "
880, 4022.61, 0.7329257, -0.0571238, 0.008997725, NaN, 0.0897272, "- N/A -   "
882, 4025.98, 0.734427, -0.05701503, 0.00895178, NaN, 0.119026, "- N/A -   "
884, 4031.59, 0.736179, -0.05709541, 0.008957249, NaN, 0.0897272, "- N/A -   "
886, 4042.81, 0.73793, -0.05720297, 0.008952873, NaN, 0.0897272, "- N/A -   "
888, 4006.9, 0.7394317, -0.055891, 0.008261498, NaN, 0.119026, "- N/A -   "
890, 4017, 0.741183, -0.05597017, 0.008251651, NaN, 0.0897272, "- N/A -   "
892, 4029.34, 0.742935, -0.0560943, 0.008247276, NaN, 0.0897272, "- N/A -   "
894, 4036.074, 0.7444364, -0.0561983, 0.008240713, NaN, 0.119026, "- N/A -   "
896, 4046.17, 0.746188, -0.0563141, 0.008235243, NaN, 0.0897272, "- N/A -   "
898, 4055.15, 0.7479396, -0.05643705, 0.008230867, NaN, 0.0897272, "- N/A -   "
900, 4063, 0.7494409, -0.0565269, 0.008225397, NaN, 0.119026, "- N/A -   "
902, 4070.858, 0.751193, -0.0566439, 0.008222115, NaN, 0.0897272, "- N/A -   "
904, 4079.83, 0.7529442, -0.0567739, 0.008218833, NaN, 0.0897272, "- N/A -   "
906, 4085.44, 0.754446, -0.0568602, 0.008214458, NaN, 0.119026, "- N/A -   "
908, 4095.54, 0.7561972, -0.05696894, 0.00821227, NaN, 0.0897272, "- N/A -   "
910, 4105.642, 0.7579488, -0.0570836, 0.008211176, NaN, 0.0897272, "- N/A -   "
912, 4111.25, 0.75945, -0.0571687, 0.008207894, NaN, 0.119026, "- N/A -   "
914, 4120.229, 0.7612018, -0.05728216, 0.008210082, NaN, 0.0897272, "- N/A -   "
916, 4130.33, 0.7629534, -0.057385, 0.008221022, NaN, 0.0897272, "- N/A -   "
918, 4132.572, 0.7644548, -0.0574535, 0.008228679, NaN, 0.119026, "- N/A -   "
920, 4140.43, 0.766206, -0.0575647, 0.008234149, NaN, 0.0897272, "- N/A -   "
922, 4148.281, 0.767958, -0.0576829, 0.008238524, NaN, 0.0897272, "- N/A -   "
924, 4152.77, 0.7694594, -0.0577644, 0.00823962, NaN, 0.119026, "- N/A -   "
926, 4161.745, 0.771211, -0.05786488, 0.0082429, NaN, 0.0897272, "- N/A -   "
928, 4170.722, 0.7729626, -0.0579736, 0.008245088, NaN, 0.0897272, "- N/A -   "
930, 4175.21, 0.774464, -0.0580339, 0.00824837, NaN, 0.119026, "- N/A -   "
932, 4184.187, 0.7762157, -0.0581415, 0.00825384, NaN, 0.0897272, "- N/A -   "
934, 4193.163, 0.7779673, -0.058249, 0.008259309, NaN, 0.0897272, "- N/A -   "
936, 4195.407, 0.779469, -0.05831285, 0.008260404, NaN, 0.119026, "- N/A -   "
938, 4205.506, 0.7812202, -0.0584204, 0.008254934, NaN, 0.0897272, "- N/A -   "
940, 4208.872, 0.782972, -0.0585102, 0.008275719, NaN, 0.0897272, "- N/A -   "
942, 4212.24, 0.784473, -0.0585682, 0.008286658, NaN, 0.119026, "- N/A -   "
944, 4221.215, 0.7862249, -0.0586816, 0.008291034, NaN, 0.0897272, "- N/A -   "
946, 4230.19, 0.7879765, -0.05879509, 0.008293222, NaN, 0.0897272, "- N/A -   "
948, 4234.68, 0.7894779, -0.0588684, 0.008291034, NaN, 0.119026, "- N/A -   "
950, 4245.9, 0.79123, -0.0589925, 0.008294316, NaN, 0.0897272, "- N/A -   "
952, 4252.633, 0.792731, -0.0591071, 0.008296504, NaN, 0.119026, "- N/A -   "
954, 4259.365, 0.794482, -0.0591863, 0.008296504, NaN, 0.119026, "- N/A -   "
956, 4269.464, 0.7962341, -0.0593128, 0.008300879, NaN, 0.0897272, "- N/A -   "
958, 4276.2, 0.7977355, -0.0594322, 0.008303068, NaN, 0.119026, "- N/A -   "
960, 4282.928, 0.7994871, -0.0595161, 0.008303068, NaN, 0.0897272, "- N/A -   "
962, 4290.78, 0.8012388, -0.05964966, 0.008307443, NaN, 0.0897272, "- N/A -   "
964, 4298.637, 0.8027401, -0.05975604, 0.008315101, NaN, 0.119026, "- N/A -   "
966, 4296.393, 0.8044917, -0.059795, 0.008338074, NaN, 0.0897272, "- N/A -   "
968, 4304.25, 0.8062433, -0.0599132, 0.008346825, NaN, 0.0897272, "- N/A -   "
970, 4309.858, 0.807745, -0.0600078, 0.008347919, NaN, 0.119026, "- N/A -   "
972, 4299.76, 0.809496, -0.0599381, 0.008374174, NaN, 0.0897272, "- N/A -   "
974, 1725.74, 0.811248, -0.0413713, 0.0105774, NaN, 0.0897272, "- N/A -   "
976, 1743.69, 0.8129996, -0.04158132, 0.010608, NaN, 0.0897272, "- N/A -   "
976.5, 1747.06, 0.8135, -0.04162144, 0.01061458, NaN, 0.0592077, "- N/A -   "